% Gold dielectric function from Olmon
%  Energy (eV)  n   k
0.049799	27.900000	126.000000
0.051667	27.100000	122.000000
0.053448	26.400000	119.000000
0.055357	25.600000	115.000000
0.057407	24.900000	112.000000
0.059330	24.200000	110.000000
0.061084	23.500000	107.000000
0.063265	22.900000	104.000000
0.064921	22.300000	102.000000
0.067027	21.600000	99.500000
0.068889	21.000000	97.300000
0.070857	20.500000	95.200000
0.072515	19.900000	93.200000
0.074699	19.300000	91.300000
0.076543	18.800000	89.500000
0.078481	18.300000	87.800000
0.080519	17.800000	86.100000
0.082119	17.300000	84.500000
0.084354	16.900000	83.000000
0.086111	16.400000	81.500000
0.087943	16.000000	80.000000
0.089855	15.600000	78.600000
0.091852	15.100000	77.300000
0.093939	14.800000	76.000000
0.095385	14.400000	74.800000
0.097638	14.000000	73.600000
0.099200	13.600000	72.400000
0.101639	13.300000	71.300000
0.103333	13.000000	70.200000
0.105085	12.600000	69.100000
0.106897	12.300000	68.100000
0.108772	12.000000	67.100000
0.110714	11.700000	66.100000
0.112727	11.500000	65.100000
0.114815	11.200000	64.200000
0.116981	10.900000	63.300000
0.118095	10.700000	62.400000
0.120388	10.400000	61.600000
0.122772	10.200000	60.800000
0.124373	9.930000	60.000000
0.126273	9.700000	59.200000
0.128232	9.480000	58.400000
0.130115	9.270000	57.700000
0.132055	9.060000	56.900000
0.133909	8.860000	56.200000
0.135816	8.660000	55.500000
0.137778	8.480000	54.900000
0.139640	8.290000	54.200000
0.141553	8.120000	53.600000
0.143519	7.940000	52.900000
0.145369	7.780000	52.300000
0.147268	7.610000	51.700000
0.149218	7.460000	51.100000
0.151220	7.300000	50.500000
0.153086	7.150000	50.000000
0.155000	7.010000	49.400000
0.156962	6.870000	48.900000
0.158771	6.730000	48.400000
0.160622	6.600000	47.800000
0.162516	6.470000	47.300000
0.164456	6.340000	46.800000
0.166443	6.220000	46.300000
0.168250	6.100000	45.900000
0.170330	5.990000	45.400000
0.172222	5.870000	44.900000
0.174157	5.760000	44.500000
0.175887	5.660000	44.000000
0.177905	5.550000	43.600000
0.179710	5.450000	43.200000
0.181818	5.350000	42.800000
0.183704	5.260000	42.400000
0.185629	5.160000	42.000000
0.187595	5.070000	41.600000
0.189313	4.980000	41.200000
0.191358	4.900000	40.800000
0.193146	4.810000	40.400000
0.195276	4.730000	40.100000
0.197138	4.650000	39.700000
0.199037	4.570000	39.300000
0.200972	4.490000	39.000000
0.202946	4.420000	38.600000
0.204620	4.350000	38.300000
0.206667	4.280000	38.000000
0.208403	4.210000	37.700000
0.210526	4.140000	37.300000
0.212329	4.070000	37.000000
0.214162	4.010000	36.700000
0.216028	3.940000	36.400000
0.217926	3.880000	36.100000
0.219858	3.820000	35.800000
0.221825	3.760000	35.500000
0.223827	3.700000	35.200000
0.225865	3.650000	35.000000
0.227523	3.590000	34.700000
0.229630	3.540000	34.400000
0.231343	3.480000	34.100000
0.233522	3.430000	33.900000
0.235294	3.380000	33.600000
0.237094	3.330000	33.300000
0.238921	3.280000	33.100000
0.241245	3.240000	32.800000
0.243137	3.190000	32.600000
0.245059	3.140000	32.400000
0.247012	3.100000	32.100000
0.248497	3.060000	31.900000
0.250505	3.010000	31.700000
0.252546	2.970000	31.400000
0.254620	2.930000	31.200000
0.256198	2.890000	31.000000
0.258333	2.850000	30.800000
0.259958	2.810000	30.500000
0.262156	2.770000	30.300000
0.263830	2.740000	30.100000
0.266094	2.700000	29.900000
0.267819	2.660000	29.700000
0.269565	2.630000	29.500000
0.271930	2.590000	29.300000
0.273731	2.560000	29.100000
0.275556	2.530000	28.900000
0.277405	2.500000	28.700000
0.279279	2.460000	28.500000
0.281179	2.430000	28.300000
0.283105	2.400000	28.200000
0.285057	2.370000	28.000000
0.287037	2.340000	27.800000
0.289044	2.310000	27.600000
0.291080	2.280000	27.400000
0.292453	2.260000	27.300000
0.294537	2.230000	27.100000
0.296651	2.200000	26.900000
0.298077	2.180000	26.800000
0.300242	2.150000	26.600000
0.302439	2.120000	26.400000
0.303922	2.100000	26.300000
0.306173	2.070000	26.100000
0.307692	2.050000	26.000000
0.310000	2.030000	25.800000
0.311558	2.000000	25.600000
0.313924	1.980000	25.500000
0.315522	1.960000	25.300000
0.317949	1.930000	25.200000
0.319588	1.910000	25.000000
0.321244	1.890000	24.900000
0.322917	1.870000	24.800000
0.325459	1.850000	24.600000
0.327177	1.830000	24.500000
0.328912	1.810000	24.300000
0.330667	1.790000	24.200000
0.332440	1.770000	24.100000
0.335135	1.750000	23.900000
0.336957	1.730000	23.800000
0.338798	1.710000	23.700000
0.340659	1.690000	23.500000
0.342541	1.680000	23.400000
0.344444	1.660000	23.300000
0.346369	1.640000	23.200000
0.348315	1.620000	23.000000
0.350282	1.610000	22.900000
0.352273	1.590000	22.800000
0.354286	1.570000	22.700000
0.355301	1.560000	22.500000
0.357349	1.540000	22.400000
0.359420	1.530000	22.300000
0.361516	1.510000	22.200000
0.363636	1.500000	22.100000
0.365782	1.480000	22.000000
0.366864	1.470000	21.900000
0.369048	1.450000	21.700000
0.371257	1.440000	21.600000
0.373494	1.420000	21.500000
0.374622	1.410000	21.400000
0.376900	1.400000	21.300000
0.379205	1.380000	21.200000
0.380368	1.370000	21.100000
0.382716	1.360000	21.000000
0.385093	1.340000	20.900000
0.386293	1.330000	20.800000
0.388715	1.320000	20.700000
0.389937	1.300000	20.600000
0.392405	1.290000	20.500000
0.393651	1.280000	20.400000
0.396166	1.270000	20.300000
0.397436	1.260000	20.200000
0.400000	1.250000	20.100000
0.401294	1.230000	20.000000
0.403909	1.220000	19.900000
0.405229	1.210000	19.800000
0.407895	1.200000	19.700000
0.409241	1.190000	19.600000
0.410596	1.180000	19.500000
0.413333	1.170000	19.500000
0.414716	1.160000	19.400000
0.417508	1.150000	19.300000
0.418919	1.140000	19.200000
0.420339	1.130000	19.100000
0.423208	1.120000	19.000000
0.424658	1.110000	18.900000
0.426117	1.100000	18.900000
0.429066	1.090000	18.800000
0.430556	1.080000	18.700000
0.432056	1.070000	18.600000
0.433566	1.060000	18.500000
0.436620	1.050000	18.400000
0.438163	1.040000	18.400000
0.439716	1.040000	18.300000
0.441281	1.030000	18.200000
0.444444	1.020000	18.100000
0.446043	1.010000	18.000000
0.447653	1.000000	18.000000
0.449275	0.992000	17.900000
0.450909	0.984000	17.800000
0.452555	0.976000	17.700000
0.455882	0.968000	17.700000
0.457565	0.961000	17.600000
0.459259	0.953000	17.500000
0.460967	0.945000	17.500000
0.462687	0.938000	17.400000
0.464419	0.930000	17.300000
0.466165	0.923000	17.200000
0.467925	0.915000	17.200000
0.469697	0.908000	17.100000
0.473282	0.901000	17.000000
0.475096	0.894000	17.000000
0.476923	0.887000	16.900000
0.478764	0.880000	16.800000
0.480620	0.873000	16.800000
0.482490	0.867000	16.700000
0.484375	0.860000	16.600000
0.486275	0.854000	16.600000
0.488189	0.847000	16.500000
0.490119	0.841000	16.400000
0.492063	0.834000	16.400000
0.494024	0.828000	16.300000
0.496000	0.822000	16.200000
0.497992	0.816000	16.200000
0.500000	0.810000	16.100000
0.502024	0.804000	16.100000
0.504065	0.792000	15.900000
0.506122	0.786000	15.900000
0.508197	0.780000	15.800000
0.510288	0.775000	15.800000
0.512397	0.769000	15.700000
0.514523	0.763000	15.600000
0.518828	0.753000	15.500000
0.521008	0.747000	15.500000
0.523207	0.737000	15.400000
0.525424	0.731000	15.300000
0.527660	0.726000	15.200000
0.529915	0.721000	15.200000
0.534483	0.706000	15.000000
0.536797	0.701000	15.000000
0.539130	0.696000	14.900000
0.543860	0.687000	14.800000
0.546256	0.678000	14.700000
0.548673	0.673000	14.700000
0.553571	0.659000	14.500000
0.556054	0.655000	14.500000
0.558559	0.651000	14.400000
0.561086	0.642000	14.300000
0.563636	0.638000	14.300000
0.566210	0.634000	14.200000
0.568807	0.625000	14.100000
0.571429	0.621000	14.100000
0.576744	0.609000	13.900000
0.579439	0.605000	13.900000
0.582160	0.598000	13.800000
0.584906	0.594000	13.700000
0.590476	0.583000	13.600000
0.596154	0.572000	13.500000
0.601942	0.561000	13.300000
0.604878	0.554000	13.300000
0.607843	0.551000	13.200000
0.610837	0.544000	13.100000
0.613861	0.541000	13.100000
0.616915	0.535000	13.000000
0.620000	0.529000	13.000000
0.623116	0.524000	12.900000
0.626263	0.517000	12.900000
0.629442	0.510000	12.800000
0.632653	0.504000	12.700000
0.635897	0.497000	12.700000
0.639175	0.491000	12.600000
0.642487	0.484000	12.600000
0.645833	0.478000	12.500000
0.649215	0.472000	12.500000
0.652632	0.466000	12.400000
0.656085	0.460000	12.300000
0.659574	0.454000	12.300000
0.663102	0.448000	12.200000
0.666667	0.442000	12.200000
0.670270	0.436000	12.100000
0.673913	0.431000	12.100000
0.677596	0.425000	12.000000
0.681319	0.419000	11.900000
0.685083	0.414000	11.900000
0.688889	0.409000	11.800000
0.692737	0.403000	11.800000
0.696629	0.398000	11.700000
0.700565	0.393000	11.700000
0.704545	0.388000	11.600000
0.708571	0.383000	11.500000
0.712644	0.378000	11.500000
0.716763	0.373000	11.400000
0.720930	0.369000	11.400000
0.725146	0.364000	11.300000
0.729412	0.359000	11.200000
0.733728	0.355000	11.200000
0.738095	0.350000	11.100000
0.742515	0.346000	11.100000
0.746988	0.341000	11.000000
0.751515	0.337000	10.900000
0.756098	0.333000	10.900000
0.760736	0.328000	10.800000
0.765432	0.324000	10.800000
0.770186	0.320000	10.700000
0.775000	0.316000	10.600000
0.779874	0.312000	10.600000
0.784810	0.308000	10.500000
0.789809	0.304000	10.500000
0.794872	0.300000	10.400000
0.800000	0.297000	10.300000
0.805195	0.293000	10.300000
0.810458	0.289000	10.200000
0.815789	0.285000	10.100000
0.821192	0.282000	10.100000
0.826667	0.278000	10.000000
0.832215	0.275000	9.950000
0.837838	0.271000	9.890000
0.843537	0.268000	9.830000
0.849315	0.264000	9.760000
0.855172	0.261000	9.700000
0.861111	0.258000	9.630000
0.867133	0.255000	9.560000
0.918519	0.233000	8.990000
0.925373	0.230000	8.920000
0.932331	0.227000	8.850000
0.939394	0.224000	8.770000
0.946565	0.221000	8.700000
0.953846	0.219000	8.630000
0.961240	0.216000	8.560000
0.968750	0.213000	8.490000
0.976378	0.211000	8.410000
0.984127	0.208000	8.340000
0.992000	0.205000	8.270000
1.000000	0.203000	8.200000
1.008130	0.200000	8.130000
1.016393	0.198000	8.050000
1.024793	0.195000	7.980000
1.033333	0.192000	7.910000
1.042017	0.190000	7.840000
1.050847	0.187000	7.760000
1.059829	0.185000	7.690000
1.068966	0.182000	7.620000
1.078261	0.180000	7.540000
1.087719	0.178000	7.470000
1.097345	0.175000	7.400000
1.107143	0.173000	7.320000
1.117117	0.171000	7.250000
1.127273	0.168000	7.180000
1.137615	0.166000	7.100000
1.148148	0.164000	7.030000
1.158879	0.162000	6.950000
1.169811	0.159000	6.880000
1.180952	0.157000	6.800000
1.192308	0.155000	6.730000
1.203883	0.153000	6.650000
1.215686	0.151000	6.580000
1.227723	0.149000	6.500000
1.240000	0.147000	6.430000
1.252525	0.145000	6.350000
1.265306	0.144000	6.280000
1.278351	0.142000	6.200000
1.291667	0.140000	6.120000
1.305263	0.138000	6.050000
1.319149	0.137000	5.970000
1.333333	0.135000	5.890000
1.347826	0.134000	5.820000
1.362637	0.132000	5.740000
1.377778	0.131000	5.660000
1.393258	0.130000	5.580000
1.409091	0.129000	5.500000
1.425287	0.128000	5.420000
1.441860	0.127000	5.350000
1.458824	0.126000	5.270000
1.476190	0.125000	5.190000
1.493976	0.125000	5.100000
1.512195	0.124000	5.020000
1.530864	0.124000	4.940000
1.550000	0.124000	4.860000
1.569620	0.124000	4.780000
1.589744	0.124000	4.690000
1.610390	0.125000	4.610000
1.631579	0.126000	4.530000
1.653333	0.127000	4.440000
1.675676	0.128000	4.350000
1.698630	0.130000	4.270000
1.722222	0.132000	4.180000
1.746479	0.135000	4.090000
1.771429	0.138000	4.000000
1.797101	0.142000	3.910000
1.823529	0.146000	3.820000
1.850746	0.151000	3.730000
1.878788	0.157000	3.630000
1.907692	0.164000	3.540000
1.937500	0.172000	3.440000
1.968254	0.181000	3.340000
2.000000	0.192000	3.240000
2.032787	0.204000	3.130000
2.066667	0.218000	3.030000
2.101695	0.235000	2.920000
2.137931	0.255000	2.800000
2.175439	0.279000	2.690000
2.214286	0.308000	2.560000
2.254545	0.344000	2.430000
2.296296	0.390000	2.300000
2.339623	0.452000	2.160000
2.384615	0.538000	2.010000
2.431373	0.658000	1.860000
2.480000	0.818000	1.750000
2.530612	1.000000	1.680000
2.583333	1.180000	1.680000
2.638298	1.320000	1.720000
2.695652	1.400000	1.770000
2.755556	1.440000	1.820000
2.818182	1.470000	1.830000
2.883721	1.500000	1.840000
2.952381	1.530000	1.850000
3.024390	1.550000	1.860000
3.100000	1.550000	1.870000
3.179487	1.550000	1.860000
3.263158	1.550000	1.830000
3.351351	1.570000	1.800000
3.444444	1.600000	1.780000
3.542857	1.630000	1.770000
3.647059	1.650000	1.780000
3.757576	1.660000	1.800000
3.875000	1.640000	1.830000
4.000000	1.610000	1.840000
4.133333	1.560000	1.830000
